Folder: VoltametriaCiclica (part 3)

File: 50mV-Mxene3_2.txt
Potential applied (V);Time (s);WE(1).Current (A);Scan;Index;Q+;Q-;Current range;Overload
-0.0975037;45.9365;-0.000268738;1;1;0.00364997;-0.00307028;10 mA;
-0.0291443;47.3037;-7.86438e-05;1;29;0.00364997;-0.00307028;100 µA;
0.0392151;48.6709;-4.73022e-06;1;57;0.00364997;-0.00307028;10 µA;
0.107574;50.0381;4.7229e-05;1;85;0.00364997;-0.00307028;10 µA;
0.175934;51.4052;8.87756e-05;1;113;0.00364997;-0.00307028;100 µA;
0.244293;52.7724;0.000124573;1;141;0.00364997;-0.00307028;100 µA;
0.312653;54.1396;0.000155396;1;169;0.00364997;-0.00307028;100 µA;
0.381012;55.5068;0.000184113;1;197;0.00364997;-0.00307028;100 µA;
0.449371;56.874;0.000212128;1;225;0.00364997;-0.00307028;100 µA;
0.517731;58.2412;0.000232483;1;253;0.00364997;-0.00307028;100 µA;
0.58609;59.6083;0.000244751;1;281;0.00364997;-0.00307028;100 µA;
0.654449;60.9755;0.000252838;1;309;0.00364997;-0.00307028;100 µA;
0.722809;62.3427;0.000257751;1;337;0.00364997;-0.00307028;100 µA;
0.791168;63.7099;0.000260193;1;365;0.00364997;-0.00307028;100 µA;
0.844879;65.0771;0.000234344;1;393;0.00364997;-0.00307028;100 µA;
0.77652;66.4443;0.000112396;1;421;0.00364997;-0.00307028;100 µA;
0.70816;67.8115;4.32007e-05;1;449;0.00364997;-0.00307028;100 µA;
0.639801;69.1786;-5.44861e-06;1;477;0.00364997;-0.00307028;1 µA;
0.571442;70.5458;-4.28345e-05;1;505;0.00364997;-0.00307028;10 µA;
0.503082;71.913;-7.40967e-05;1;533;0.00364997;-0.00307028;100 µA;
0.434723;73.2802;-0.000103271;1;561;0.00364997;-0.00307028;100 µA;
0.366364;74.6474;-0.000133514;1;589;0.00364997;-0.00307028;100 µA;
0.298004;76.0146;-0.000165405;1;617;0.00364997;-0.00307028;100 µA;
0.229645;77.3817;-0.000194733;1;645;0.00364997;-0.00307028;100 µA;
0.161285;78.7489;-0.000218445;1;673;0.00364997;-0.00307028;100 µA;
0.092926;80.1161;-0.000236511;1;701;0.00364997;-0.00307028;100 µA;
0.0245667;81.4833;-0.000249573;1;729;0.00364997;-0.00307028;100 µA;
-0.0437927;82.8505;-0.000259674;1;757;0.00364997;-0.00307028;100 µA;
-0.087738;84.2177;-0.000227325;1;785;0.00364997;-0.00307028;100 µA;
-0.0193787;85.5848;-0.000109192;1;813;0.00364997;-0.00307028;100 µA;
0.0489807;86.952;-3.5083e-05;1;841;0.00364997;-0.00307028;10 µA;
0.11734;88.3192;2.0932e-05;1;869;0.00364997;-0.00307028;10 µA;
0.185699;89.6864;6.6925e-05;1;897;0.00364997;-0.00307028;100 µA;
0.254059;91.0536;0.000106689;1;925;0.00364997;-0.00307028;100 µA;
0.322418;92.4208;0.000141602;2;953;0.00294678;-0.00288788;100 µA;
0.390778;93.7879;0.000174194;2;981;0.00294678;-0.00288788;100 µA;
0.459137;95.1551;0.000202789;2;1009;0.00294678;-0.00288788;100 µA;
0.527496;96.5223;0.000220978;2;1037;0.00294678;-0.00288788;100 µA;
0.595856;97.8895;0.000230469;2;1065;0.00294678;-0.00288788;100 µA;
0.664215;99.2567;0.000235107;2;1093;0.00294678;-0.00288788;100 µA;
0.732574;100.624;0.000236389;2;1121;0.00294678;-0.00288788;100 µA;
0.800934;101.991;0.000235687;2;1149;0.00294678;-0.00288788;100 µA;
0.835114;103.358;0.000184662;2;1177;0.00294678;-0.00288788;100 µA;
0.766754;104.725;8.08716e-05;2;1205;0.00294678;-0.00288788;100 µA;
0.698395;106.093;1.9693e-05;2;1233;0.00294678;-0.00288788;10 µA;
0.630035;107.46;-2.33704e-05;2;1261;0.00294678;-0.00288788;10 µA;
0.561676;108.827;-5.66193e-05;2;1289;0.00294678;-0.00288788;10 µA;
0.493317;110.194;-8.51746e-05;2;1317;0.00294678;-0.00288788;100 µA;
0.424957;111.561;-0.000112335;2;1345;0.00294678;-0.00288788;100 µA;
0.356598;112.929;-0.000141693;2;1373;0.00294678;-0.00288788;100 µA;
0.288239;114.296;-0.00017276;2;1401;0.00294678;-0.00288788;100 µA;
0.219879;115.663;-0.000201202;2;1429;0.00294678;-0.00288788;100 µA;
0.15152;117.03;-0.000223969;2;1457;0.00294678;-0.00288788;100 µA;
0.0831604;118.397;-0.00024115;2;1485;0.00294678;-0.00288788;100 µA;
0.014801;119.764;-0.000253479;2;1513;0.00294678;-0.00288788;100 µA;
-0.0535583;121.132;-0.000263092;2;1541;0.00294678;-0.00288788;100 µA;
-0.0779724;122.499;-0.000206177;2;1569;0.00294678;-0.00288788;100 µA;
-0.00961304;123.866;-9.87549e-05;2;1597;0.00294678;-0.00288788;100 µA;
0.0587463;125.233;-2.79083e-05;2;1625;0.00294678;-0.00288788;10 µA;
0.127106;126.6;2.64679e-05;2;1653;0.00294678;-0.00288788;10 µA;
0.195465;127.968;7.15027e-05;2;1681;0.00294678;-0.00288788;100 µA;
0.263824;129.335;0.000110779;2;1709;0.00294678;-0.00288788;100 µA;
0.332184;130.702;0.000145447;3;1737;0.00292413;-0.00290248;100 µA;
0.400543;132.069;0.000178101;3;1765;0.00292413;-0.00290248;100 µA;
0.468903;133.436;0.000205505;3;1793;0.00292413;-0.00290248;100 µA;
0.537262;134.803;0.000222015;3;1821;0.00292413;-0.00290248;100 µA;
0.605621;136.171;0.000230347;3;1849;0.00292413;-0.00290248;100 µA;
0.673981;137.538;0.000234161;3;1877;0.00292413;-0.00290248;100 µA;
0.74234;138.905;0.000234528;3;1905;0.00292413;-0.00290248;100 µA;
0.810699;140.272;0.000233063;3;1933;0.00292413;-0.00290248;100 µA;
0.825348;141.639;0.000161346;3;1961;0.00292413;-0.00290248;100 µA;
0.756989;143.007;6.75354e-05;3;1989;0.00292413;-0.00290248;100 µA;
0.688629;144.374;1.00464e-05;3;2017;0.00292413;-0.00290248;10 µA;
0.62027;145.741;-3.0835e-05;3;2045;0.00292413;-0.00290248;10 µA;
0.55191;147.108;-6.26526e-05;3;2073;0.00292413;-0.00290248;100 µA;
0.483551;148.475;-9.021e-05;3;2101;0.00292413;-0.00290248;100 µA;
0.415192;149.842;-0.000117249;3;2129;0.00292413;-0.00290248;100 µA;
0.346832;151.21;-0.000146729;3;2157;0.00292413;-0.00290248;100 µA;
0.278473;152.577;-0.000177643;3;2185;0.00292413;-0.00290248;100 µA;
0.210114;153.944;-0.000205261;3;2213;0.00292413;-0.00290248;100 µA;
0.141754;155.311;-0.000227295;3;2241;0.00292413;-0.00290248;100 µA;
0.0733948;156.678;-0.000243591;3;2269;0.00292413;-0.00290248;100 µA;
0.0050354;158.046;-0.00025528;3;2297;0.00292413;-0.00290248;100 µA;
-0.063324;159.413;-0.000264618;3;2325;0.00292413;-0.00290248;100 µA;
-0.0682068;160.78;-0.000186554;3;2353;0.00292413;-0.00290248;100 µA;
0.000152588;162.147;-8.74023e-05;3;2381;0.00292413;-0.00290248;100 µA;
0.068512;163.514;-1.96228e-05;3;2409;0.00292413;-0.00290248;10 µA;
0.136871;164.882;3.3139e-05;3;2437;0.00292413;-0.00290248;10 µA;
0.205231;166.249;7.72095e-05;3;2465;0.00292413;-0.00290248;100 µA;
0.27359;167.616;0.00011853;3;2493;0.00292413;-0.00290248;100 µA;
0.341949;168.983;0.000153961;4;2521;0.00297472;-0.00298861;100 µA;
0.410309;170.35;0.000187225;4;2549;0.00297472;-0.00298861;100 µA;
0.478668;171.717;0.000214081;4;2577;0.00297472;-0.00298861;100 µA;
0.547028;173.085;0.000229462;4;2605;0.00297472;-0.00298861;100 µA;
0.615387;174.452;0.00023645;4;2633;0.00297472;-0.00298861;100 µA;
0.683746;175.819;0.000238098;4;2661;0.00297472;-0.00298861;100 µA;
0.752106;177.186;0.00023642;4;2689;0.00297472;-0.00298861;100 µA;
0.820465;178.553;0.000233948;4;2717;0.00297472;-0.00298861;100 µA;
0.815582;179.921;0.000141998;4;2745;0.00297472;-0.00298861;100 µA;
0.747223;181.288;5.34973e-05;4;2773;0.00297472;-0.00298861;100 µA;
0.678864;182.655;-1.65436e-06;4;2801;0.00297472;-0.00298861;10 µA;
0.610504;184.022;-4.08356e-05;4;2829;0.00297472;-0.00298861;10 µA;
0.542145;185.389;-7.14722e-05;4;2857;0.00297472;-0.00298861;100 µA;
0.473785;186.756;-9.85413e-05;4;2885;0.00297472;-0.00298861;100 µA;
0.405426;188.124;-0.000125732;4;2913;0.00297472;-0.00298861;100 µA;
0.337067;189.491;-0.000155731;4;2941;0.00297472;-0.00298861;100 µA;
0.268707;190.858;-0.000187012;4;2969;0.00297472;-0.00298861;100 µA;
0.200348;192.225;-0.0002146;4;2997;0.00297472;-0.00298861;100 µA;
0.131989;193.592;-0.000236328;4;3025;0.00297472;-0.00298861;100 µA;
0.0636292;194.96;-0.000252197;4;3053;0.00297472;-0.00298861;100 µA;
-0.00473022;196.327;-0.000263245;4;3081;0.00297472;-0.00298861;100 µA;
-0.0730896;197.694;-0.000272003;4;3109;0.00297472;-0.00298861;100 µA;
-0.0584412;199.061;-0.000171753;4;3137;0.00297472;-0.00298861;100 µA;
0.00991821;200.428;-7.58667e-05;4;3165;0.00297472;-0.00298861;100 µA;
0.0782776;201.795;-8.64563e-06;4;3193;0.00297472;-0.00298861;10 µA;
0.146637;203.163;4.40521e-05;4;3221;0.00297472;-0.00298861;10 µA;
0.214996;204.53;8.81958e-05;4;3249;0.00297472;-0.00298861;100 µA;
0.283356;205.897;0.00012677;4;3277;0.00297472;-0.00298861;100 µA;
0.351715;207.264;0.000161346;5;3305;0.003003;-0.00300874;100 µA;
0.420074;208.631;0.000193848;5;3333;0.003003;-0.00300874;100 µA;
0.488434;209.999;0.000218994;5;3361;0.003003;-0.00300874;100 µA;
0.556793;211.366;0.000232697;5;3389;0.003003;-0.00300874;100 µA;
0.625153;212.733;0.000238617;5;3417;0.003003;-0.00300874;100 µA;
0.693512;214.1;0.000239471;5;3445;0.003003;-0.00300874;100 µA;
0.761871;215.467;0.000237213;5;3473;0.003003;-0.00300874;100 µA;
0.830231;216.835;0.000234833;5;3501;0.003003;-0.00300874;100 µA;
0.805817;218.202;0.000125671;5;3529;0.003003;-0.00300874;100 µA;
0.737457;219.569;4.3454e-05;5;3557;0.003003;-0.00300874;100 µA;
0.669098;220.936;-8.92944e-06;5;3585;0.003003;-0.00300874;10 µA;
0.600739;222.303;-4.65668e-05;5;3613;0.003003;-0.00300874;10 µA;
0.532379;223.67;-7.64771e-05;5;3641;0.003003;-0.00300874;100 µA;
0.46402;225.038;-0.000103333;5;3669;0.003003;-0.00300874;100 µA;
0.39566;226.405;-0.000130951;5;3697;0.003003;-0.00300874;100 µA;
0.327301;227.772;-0.000161957;5;3725;0.003003;-0.00300874;100 µA;
0.258942;229.139;-0.000193298;5;3753;0.003003;-0.00300874;100 µA;
0.190582;230.506;-0.000220367;5;3781;0.003003;-0.00300874;100 µA;
0.122223;231.874;-0.000241241;5;3809;0.003003;-0.00300874;100 µA;
0.0538635;233.241;-0.000256134;5;3837;0.003003;-0.00300874;100 µA;
-0.0144958;234.608;-0.000266296;5;3865;0.003003;-0.00300874;100 µA;
-0.0828552;235.975;-0.000274658;5;3893;0.003003;-0.00300874;100 µA;
-0.0486755;237.342;-0.000154327;5;3921;0.003003;-0.00300874;100 µA;
0.0196838;238.709;-6.30493e-05;5;3949;0.003003;-0.00300874;100 µA;
0.0880432;240.077;1.86096e-06;5;3977;0.003003;-0.00300874;10 µA;
0.156403;241.444;5.31036e-05;5;4005;0.003003;-0.00300874;10 µA;
0.224762;242.811;9.63745e-05;5;4033;0.003003;-0.00300874;100 µA;
0.293121;244.178;0.000134247;5;4061;0.003003;-0.00300874;100 µA;
0.300446;244.325;0.000138031;5;4064;0.003003;-0.00300874;100 µA;