Folder: VoltametriaCiclica

Note: README.md
# VoltametriaCiclica
Aqui estão os códigos utilizados para fazer a análise da Voltametria Cilcíca dos MXenes analisados.

Todos os dados enumerados como 1 são referentes ao MXene delaminado usando junção de NaF+LiF e enumerado 2 são com NaF+KF. 

Existem 2 programas nesta pasta o nomeado com médias é utilizando a área média da voltametria ciclíca para cada velocidade de varredura, assim possibilitando uma melhor noção das incertezas nos valores. O outro arquivo pega só algumas curvas específicas.

File: 10mV-Mxene3_2.txt
Potential applied (V);Time (s);WE(1).Current (A);Scan;Index;Q+;Q-;Current range
-0.0975037;62.2964;-0.000194458;1;1;0.00612457;-0.0055012;10 mA
-0.0315857;68.8882;-1.67358e-05;1;28;0.00612457;-0.0055012;10 µA
0.0343323;75.48;1.72546e-05;1;55;0.00612457;-0.0055012;10 µA
0.10025;82.0719;3.16589e-05;1;82;0.00612457;-0.0055012;10 µA
0.166168;88.6637;4.17725e-05;1;109;0.00612457;-0.0055012;10 µA
0.232086;95.2555;5.06683e-05;1;136;0.00612457;-0.0055012;10 µA
0.298004;101.847;5.87067e-05;1;163;0.00612457;-0.0055012;10 µA
0.363922;108.439;6.89392e-05;1;190;0.00612457;-0.0055012;100 µA
0.42984;115.031;7.60193e-05;1;217;0.00612457;-0.0055012;100 µA
0.495758;121.623;7.42493e-05;1;244;0.00612457;-0.0055012;100 µA
0.561676;128.215;6.90613e-05;1;271;0.00612457;-0.0055012;100 µA
0.627594;134.806;6.41479e-05;1;298;0.00612457;-0.0055012;100 µA
0.693512;141.398;6.02722e-05;1;325;0.00612457;-0.0055012;100 µA
0.75943;147.99;5.79834e-05;1;352;0.00612457;-0.0055012;100 µA
0.825348;154.582;5.9967e-05;1;379;0.00612457;-0.0055012;100 µA
0.813141;161.174;1.48743e-05;1;406;0.00612457;-0.0055012;10 µA
0.747223;167.765;-9.60999e-06;1;433;0.00612457;-0.0055012;10 µA
0.681305;174.357;-1.76422e-05;1;460;0.00612457;-0.0055012;10 µA
0.615387;180.949;-2.27661e-05;1;487;0.00612457;-0.0055012;10 µA
0.549469;187.541;-2.83447e-05;1;514;0.00612457;-0.0055012;10 µA
0.483551;194.133;-3.58307e-05;1;541;0.00612457;-0.0055012;10 µA
0.417633;200.724;-4.63409e-05;1;568;0.00612457;-0.0055012;10 µA
0.351715;207.316;-6.10962e-05;1;595;0.00612457;-0.0055012;100 µA
0.285797;213.908;-7.53174e-05;1;622;0.00612457;-0.0055012;100 µA
0.219879;220.5;-8.25806e-05;1;649;0.00612457;-0.0055012;100 µA
0.153961;227.092;-8.34961e-05;1;676;0.00612457;-0.0055012;100 µA
0.0880432;233.683;-8.04443e-05;1;703;0.00612457;-0.0055012;100 µA
0.0221252;240.275;-7.73315e-05;1;730;0.00612457;-0.0055012;100 µA
-0.0437927;246.867;-7.70264e-05;1;757;0.00612457;-0.0055012;100 µA
-0.0901794;253.459;-5.76172e-05;1;784;0.00612457;-0.0055012;100 µA
-0.0242615;260.051;1.84479e-06;1;811;0.00612457;-0.0055012;1 µA
0.0416565;266.642;2.2348e-05;1;838;0.00612457;-0.0055012;10 µA
0.107574;273.234;3.36914e-05;1;865;0.00612457;-0.0055012;10 µA
0.173492;279.826;4.32556e-05;1;892;0.00612457;-0.0055012;10 µA
0.23941;286.418;5.25024e-05;1;919;0.00612457;-0.0055012;10 µA
0.305328;293.01;6.12488e-05;2;946;0.00496574;-0.00501939;100 µA
0.371246;299.601;7.11975e-05;2;973;0.00496574;-0.00501939;100 µA
0.437164;306.193;7.65381e-05;2;1000;0.00496574;-0.00501939;100 µA
0.503082;312.785;7.32727e-05;2;1027;0.00496574;-0.00501939;100 µA
0.569;319.377;6.75659e-05;2;1054;0.00496574;-0.00501939;100 µA
0.634918;325.969;6.2561e-05;2;1081;0.00496574;-0.00501939;100 µA
0.700836;332.561;5.88989e-05;2;1108;0.00496574;-0.00501939;100 µA
0.766754;339.152;5.68848e-05;2;1135;0.00496574;-0.00501939;100 µA
0.832672;345.744;5.93262e-05;2;1162;0.00496574;-0.00501939;100 µA
0.805817;352.336;9.03931e-06;2;1189;0.00496574;-0.00501939;10 µA
0.739899;358.928;-1.15387e-05;2;1216;0.00496574;-0.00501939;10 µA
0.673981;365.52;-1.86066e-05;2;1243;0.00496574;-0.00501939;10 µA
0.608063;372.111;-2.35687e-05;2;1270;0.00496574;-0.00501939;10 µA
0.542145;378.703;-2.92664e-05;2;1297;0.00496574;-0.00501939;10 µA
0.476227;385.295;-3.70392e-05;2;1324;0.00496574;-0.00501939;10 µA
0.410309;391.887;-4.80957e-05;2;1351;0.00496574;-0.00501939;10 µA
0.344391;398.479;-6.32935e-05;2;1378;0.00496574;-0.00501939;100 µA
0.278473;405.07;-7.71179e-05;2;1405;0.00496574;-0.00501939;100 µA
0.212555;411.662;-8.36182e-05;2;1432;0.00496574;-0.00501939;100 µA
0.146637;418.254;-8.39539e-05;2;1459;0.00496574;-0.00501939;100 µA
0.080719;424.846;-8.05664e-05;2;1486;0.00496574;-0.00501939;100 µA
0.014801;431.438;-7.76062e-05;2;1513;0.00496574;-0.00501939;100 µA
-0.0511169;438.029;-7.74231e-05;2;1540;0.00496574;-0.00501939;100 µA
-0.0828552;444.621;-4.48181e-05;2;1567;0.00496574;-0.00501939;100 µA
-0.0169373;451.213;5.79132e-06;2;1594;0.00496574;-0.00501939;1 µA
0.0489807;457.805;2.40601e-05;2;1621;0.00496574;-0.00501939;10 µA
0.114899;464.397;3.49396e-05;2;1648;0.00496574;-0.00501939;10 µA
0.180817;470.988;4.44397e-05;2;1675;0.00496574;-0.00501939;10 µA
0.246735;477.58;5.37262e-05;2;1702;0.00496574;-0.00501939;10 µA
0.312653;484.172;6.27136e-05;3;1729;0.00497668;-0.00503374;100 µA
0.378571;490.764;7.26318e-05;3;1756;0.00497668;-0.00503374;100 µA
0.444489;497.356;7.69348e-05;3;1783;0.00497668;-0.00503374;100 µA
0.510406;503.947;7.29065e-05;3;1810;0.00497668;-0.00503374;100 µA
0.576324;510.539;6.71387e-05;3;1837;0.00497668;-0.00503374;100 µA
0.642242;517.131;6.21948e-05;3;1864;0.00497668;-0.00503374;100 µA
0.70816;523.723;5.85022e-05;3;1891;0.00497668;-0.00503374;100 µA
0.774078;530.315;5.67322e-05;3;1918;0.00497668;-0.00503374;100 µA
0.839996;536.907;5.97229e-05;3;1945;0.00497668;-0.00503374;100 µA
0.798492;543.498;4.78821e-06;3;1972;0.00497668;-0.00503374;10 µA
0.732574;550.09;-1.28082e-05;3;1999;0.00497668;-0.00503374;10 µA
0.666656;556.682;-1.92566e-05;3;2026;0.00497668;-0.00503374;10 µA
0.600739;563.274;-2.41821e-05;3;2053;0.00497668;-0.00503374;10 µA
0.534821;569.866;-3.00964e-05;3;2080;0.00497668;-0.00503374;10 µA
0.468903;576.457;-3.82141e-05;3;2107;0.00497668;-0.00503374;10 µA
0.402985;583.049;-4.9823e-05;3;2134;0.00497668;-0.00503374;10 µA
0.337067;589.641;-6.53992e-05;3;2161;0.00497668;-0.00503374;100 µA
0.271149;596.233;-7.86438e-05;3;2188;0.00497668;-0.00503374;100 µA
0.205231;602.825;-8.43811e-05;3;2215;0.00497668;-0.00503374;100 µA
0.139313;609.416;-8.41064e-05;3;2242;0.00497668;-0.00503374;100 µA
0.0733948;616.008;-8.04443e-05;3;2269;0.00497668;-0.00503374;100 µA
0.00747681;622.6;-7.75757e-05;3;2296;0.00497668;-0.00503374;100 µA
-0.0584412;629.192;-7.76062e-05;3;2323;0.00497668;-0.00503374;100 µA
-0.075531;635.784;-3.4671e-05;3;2350;0.00497668;-0.00503374;100 µA
-0.00961304;642.375;8.98743e-06;3;2377;0.00497668;-0.00503374;10 µA
0.0563049;648.967;2.55798e-05;3;2404;0.00497668;-0.00503374;10 µA
0.122223;655.559;3.61267e-05;3;2431;0.00497668;-0.00503374;10 µA
0.188141;662.151;4.56146e-05;3;2458;0.00497668;-0.00503374;10 µA
0.254059;668.743;5.49316e-05;3;2485;0.00497668;-0.00503374;10 µA
0.319977;675.334;6.40564e-05;4;2512;0.00498776;-0.00504525;100 µA
0.385895;681.926;7.38831e-05;4;2539;0.00498776;-0.00504525;100 µA
0.451813;688.518;7.7179e-05;4;2566;0.00498776;-0.00504525;100 µA
0.517731;695.11;7.25403e-05;4;2593;0.00498776;-0.00504525;100 µA
0.583649;701.702;6.67419e-05;4;2620;0.00498776;-0.00504525;100 µA
0.649567;708.294;6.17981e-05;4;2647;0.00498776;-0.00504525;100 µA
0.715485;714.885;5.8197e-05;4;2674;0.00498776;-0.00504525;100 µA
0.781403;721.477;5.66101e-05;4;2701;0.00498776;-0.00504525;100 µA
0.847321;728.069;6.02722e-05;4;2728;0.00498776;-0.00504525;100 µA
0.791168;734.661;1.27869e-06;4;2755;0.00498776;-0.00504525;10 µA
0.72525;741.253;-1.38824e-05;4;2782;0.00498776;-0.00504525;10 µA
0.659332;747.844;-1.98242e-05;4;2809;0.00498776;-0.00504525;10 µA
0.593414;754.436;-2.48322e-05;4;2836;0.00498776;-0.00504525;10 µA
0.527496;761.028;-3.09357e-05;4;2863;0.00498776;-0.00504525;10 µA
0.461578;767.62;-3.93768e-05;4;2890;0.00498776;-0.00504525;10 µA
0.39566;774.212;-5.1593e-05;4;2917;0.00498776;-0.00504525;10 µA
0.329742;780.803;-6.74133e-05;4;2944;0.00498776;-0.00504525;100 µA
0.263824;787.395;-8.00171e-05;4;2971;0.00498776;-0.00504525;100 µA
0.197906;793.987;-8.49915e-05;4;2998;0.00498776;-0.00504525;100 µA
0.131989;800.579;-8.41675e-05;4;3025;0.00498776;-0.00504525;100 µA
0.0660706;807.171;-8.02917e-05;4;3052;0.00498776;-0.00504525;100 µA
0.000152588;813.762;-7.75146e-05;4;3079;0.00498776;-0.00504525;100 µA
-0.0657654;820.354;-7.77588e-05;4;3106;0.00498776;-0.00504525;100 µA
-0.0682068;826.946;-2.61719e-05;4;3133;0.00498776;-0.00504525;10 µA
-0.00228882;833.538;1.17828e-05;4;3160;0.00498776;-0.00504525;10 µA
0.0636292;840.13;2.70355e-05;4;3187;0.00498776;-0.00504525;10 µA
0.129547;846.721;3.73413e-05;4;3214;0.00498776;-0.00504525;10 µA
0.195465;853.313;4.67804e-05;4;3241;0.00498776;-0.00504525;10 µA
0.261383;859.905;5.61279e-05;4;3268;0.00498776;-0.00504525;10 µA
0.327301;866.497;6.54602e-05;5;3295;0.00499831;-0.00505588;100 µA
0.393219;873.089;7.50732e-05;5;3322;0.00499831;-0.00505588;100 µA
0.459137;879.68;7.72705e-05;5;3349;0.00499831;-0.00505588;100 µA
0.525055;886.272;7.21741e-05;5;3376;0.00499831;-0.00505588;100 µA
0.590973;892.864;6.62537e-05;5;3403;0.00499831;-0.00505588;100 µA
0.656891;899.456;6.14014e-05;5;3430;0.00499831;-0.00505588;100 µA
0.722809;906.048;5.79224e-05;5;3457;0.00499831;-0.00505588;100 µA
0.788727;912.64;5.65186e-05;5;3484;0.00499831;-0.00505588;100 µA
0.849762;919.231;5.38635e-05;5;3511;0.00499831;-0.00505588;100 µA
0.783844;925.823;-1.6864e-06;5;3538;0.00499831;-0.00505588;1 µA
0.717926;932.415;-1.48132e-05;5;3565;0.00499831;-0.00505588;10 µA
0.652008;939.007;-2.03979e-05;5;3592;0.00499831;-0.00505588;10 µA
0.58609;945.599;-2.54425e-05;5;3619;0.00499831;-0.00505588;10 µA
0.520172;952.19;-3.18024e-05;5;3646;0.00499831;-0.00505588;10 µA
0.454254;958.782;-4.06311e-05;5;3673;0.00499831;-0.00505588;10 µA
0.388336;965.374;-5.34607e-05;5;3700;0.00499831;-0.00505588;10 µA
0.322418;971.966;-6.9397e-05;5;3727;0.00499831;-0.00505588;100 µA
0.2565;978.558;-8.12988e-05;5;3754;0.00499831;-0.00505588;100 µA
0.190582;985.149;-8.54492e-05;5;3781;0.00499831;-0.00505588;100 µA
0.124664;991.741;-8.41064e-05;5;3808;0.00499831;-0.00505588;100 µA
0.0587463;998.333;-8.00781e-05;5;3835;0.00499831;-0.00505588;100 µA
-0.00717163;1004.92;-7.74536e-05;5;3862;0.00499831;-0.00505588;100 µA
-0.0730896;1011.52;-7.79419e-05;5;3889;0.00499831;-0.00505588;100 µA
-0.0608826;1018.11;-1.90063e-05;5;3916;0.00499831;-0.00505588;10 µA
0.0050354;1024.7;1.42975e-05;5;3943;0.00499831;-0.00505588;10 µA
0.0709534;1031.29;2.83875e-05;5;3970;0.00499831;-0.00505588;10 µA
0.136871;1037.88;3.85284e-05;5;3997;0.00499831;-0.00505588;10 µA
0.202789;1044.48;4.79797e-05;5;4024;0.00499831;-0.00505588;10 µA
0.268707;1051.07;5.73029e-05;5;4051;0.00499831;-0.00505588;10 µA
0.300446;1054.24;6.16455e-05;5;4064;0.00499831;-0.00505588;100 µA

File: 20mV-Mxene3_2.txt
Potential applied (V);Time (s);WE(1).Current (A);Scan;Index;Q+;Q-;Current range;Overload
-0.0975037;10.2933;-0.000215393;1;1;0.00526433;-0.00465483;10 mA;
-0.0315857;13.5892;-3.37769e-05;1;28;0.00526433;-0.00465483;10 µA;
0.0343323;16.8851;1.87683e-05;1;55;0.00526433;-0.00465483;10 µA;
0.10025;20.181;4.71649e-05;1;82;0.00526433;-0.00465483;10 µA;
0.166168;23.4769;6.68335e-05;1;109;0.00526433;-0.00465483;100 µA;
0.232086;26.7728;8.34656e-05;1;136;0.00526433;-0.00465483;100 µA;
0.298004;30.0687;9.86938e-05;1;163;0.00526433;-0.00465483;100 µA;
0.363922;33.3646;0.000114746;1;190;0.00526433;-0.00465483;100 µA;
0.42984;36.6605;0.000129059;1;217;0.00526433;-0.00465483;100 µA;
0.495758;39.9563;0.00013382;1;244;0.00526433;-0.00465483;100 µA;
0.561676;43.2522;0.000130798;1;271;0.00526433;-0.00465483;100 µA;
0.627594;46.5481;0.000125061;1;298;0.00526433;-0.00465483;100 µA;
0.693512;49.844;0.000118622;1;325;0.00526433;-0.00465483;100 µA;
0.75943;53.1399;0.000112885;1;352;0.00526433;-0.00465483;100 µA;
0.825348;56.4358;0.000110443;1;379;0.00526433;-0.00465483;100 µA;
0.813141;59.7317;4.21326e-05;1;406;0.00526433;-0.00465483;100 µA;
0.747223;63.0276;-5.16541e-06;1;433;0.00526433;-0.00465483;1 µA;
0.681305;66.3235;-2.66174e-05;1;460;0.00526433;-0.00465483;10 µA;
0.615387;69.6194;-3.89526e-05;1;487;0.00526433;-0.00465483;10 µA;
0.549469;72.9152;-4.9173e-05;1;514;0.00526433;-0.00465483;10 µA;
0.483551;76.2111;-6.06384e-05;1;541;0.00526433;-0.00465483;100 µA;
0.417633;79.507;-7.52563e-05;1;568;0.00526433;-0.00465483;100 µA;
0.351715;82.8029;-9.47266e-05;1;595;0.00526433;-0.00465483;100 µA;
0.285797;86.0988;-0.000115906;1;622;0.00526433;-0.00465483;100 µA;
0.219879;89.3947;-0.00013208;1;649;0.00526433;-0.00465483;100 µA;
0.153961;92.6906;-0.000141174;1;676;0.00526433;-0.00465483;100 µA;
0.0880432;95.9865;-0.000144073;1;703;0.00526433;-0.00465483;100 µA;
0.0221252;99.2824;-0.00014328;1;730;0.00526433;-0.00465483;100 µA;
-0.0437927;102.578;-0.000142334;1;757;0.00526433;-0.00465483;100 µA;
-0.0901794;105.874;-0.000114624;1;784;0.00526433;-0.00465483;100 µA;
-0.0242615;109.17;-2.32941e-05;1;811;0.00526433;-0.00465483;10 µA;
0.0416565;112.466;2.08801e-05;1;838;0.00526433;-0.00465483;10 µA;
0.107574;115.762;4.74365e-05;1;865;0.00526433;-0.00465483;10 µA;
0.173492;119.058;6.71692e-05;1;892;0.00526433;-0.00465483;100 µA;
0.23941;122.354;8.45337e-05;1;919;0.00526433;-0.00465483;100 µA;
0.305328;125.649;0.000100311;2;946;0.00432198;-0.00434468;100 µA;
0.371246;128.945;0.000116364;2;973;0.00432198;-0.00434468;100 µA;
0.437164;132.241;0.000129517;2;1000;0.00432198;-0.00434468;100 µA;
0.503082;135.537;0.000132263;2;1027;0.00432198;-0.00434468;100 µA;
0.569;138.833;0.000128021;2;1054;0.00432198;-0.00434468;100 µA;
0.634918;142.129;0.000121613;2;1081;0.00432198;-0.00434468;100 µA;
0.700836;145.425;0.000114899;2;1108;0.00432198;-0.00434468;100 µA;
0.766754;148.721;0.000109283;2;1135;0.00432198;-0.00434468;100 µA;
0.832672;152.017;0.000107635;2;1162;0.00432198;-0.00434468;100 µA;
0.805817;155.312;3.14087e-05;2;1189;0.00432198;-0.00434468;10 µA;
0.739899;158.608;-1.05774e-05;2;1216;0.00432198;-0.00434468;10 µA;
0.673981;161.904;-2.95898e-05;2;1243;0.00432198;-0.00434468;10 µA;
0.608063;165.2;-4.09332e-05;2;1270;0.00432198;-0.00434468;10 µA;
0.542145;168.496;-5.09644e-05;2;1297;0.00432198;-0.00434468;10 µA;
0.476227;171.792;-6.27136e-05;2;1324;0.00432198;-0.00434468;100 µA;
0.410309;175.088;-7.79114e-05;2;1351;0.00432198;-0.00434468;100 µA;
0.344391;178.384;-9.80835e-05;2;1378;0.00432198;-0.00434468;100 µA;
0.278473;181.68;-0.000119263;2;1405;0.00432198;-0.00434468;100 µA;
0.212555;184.976;-0.000134674;2;1432;0.00432198;-0.00434468;100 µA;
0.146637;188.271;-0.000142944;2;1459;0.00432198;-0.00434468;100 µA;
0.080719;191.567;-0.000145081;2;1486;0.00432198;-0.00434468;100 µA;
0.014801;194.863;-0.000143921;2;1513;0.00432198;-0.00434468;100 µA;
-0.0511169;198.159;-0.000143127;2;1540;0.00432198;-0.00434468;100 µA;
-0.0828552;201.455;-9.85718e-05;2;1567;0.00432198;-0.00434468;100 µA;
-0.0169373;204.751;-1.57898e-05;2;1594;0.00432198;-0.00434468;10 µA;
0.0489807;208.047;2.51129e-05;2;1621;0.00432198;-0.00434468;10 µA;
0.114899;211.343;5.02594e-05;2;1648;0.00432198;-0.00434468;10 µA;
0.180817;214.639;6.9458e-05;2;1675;0.00432198;-0.00434468;100 µA;
0.246735;217.934;8.66394e-05;2;1702;0.00432198;-0.00434468;100 µA;
0.312653;221.23;0.000102448;3;1729;0.004327;-0.00435544;100 µA;
0.378571;224.526;0.000118561;3;1756;0.004327;-0.00435544;100 µA;
0.444489;227.822;0.000130707;3;1783;0.004327;-0.00435544;100 µA;
0.510406;231.118;0.000132263;3;1810;0.004327;-0.00435544;100 µA;
0.576324;234.414;0.000127625;3;1837;0.004327;-0.00435544;100 µA;
0.642242;237.71;0.000121002;3;1864;0.004327;-0.00435544;100 µA;
0.70816;241.006;0.000114227;3;1891;0.004327;-0.00435544;100 µA;
0.774078;244.302;0.000108704;3;1918;0.004327;-0.00435544;100 µA;
0.839996;247.597;0.000107574;3;1945;0.004327;-0.00435544;100 µA;
0.798492;250.893;2.40051e-05;3;1972;0.004327;-0.00435544;10 µA;
0.732574;254.189;-1.38275e-05;3;1999;0.004327;-0.00435544;10 µA;
0.666656;257.485;-3.12805e-05;3;2026;0.004327;-0.00435544;10 µA;
0.600739;260.781;-4.22028e-05;3;2053;0.004327;-0.00435544;10 µA;
0.534821;264.077;-5.23132e-05;3;2080;0.004327;-0.00435544;10 µA;
0.468903;267.373;-6.43616e-05;3;2107;0.004327;-0.00435544;100 µA;
0.402985;270.669;-8.02002e-05;3;2134;0.004327;-0.00435544;100 µA;
0.337067;273.965;-0.000100891;3;2161;0.004327;-0.00435544;100 µA;
0.271149;277.26;-0.000121796;3;2188;0.004327;-0.00435544;100 µA;
0.205231;280.556;-0.000136414;3;2215;0.004327;-0.00435544;100 µA;
0.139313;283.852;-0.00014386;3;2242;0.004327;-0.00435544;100 µA;
0.0733948;287.148;-0.000145325;3;2269;0.004327;-0.00435544;100 µA;
0.00747681;290.444;-0.000144012;3;2296;0.004327;-0.00435544;100 µA;
-0.0584412;293.74;-0.000143372;3;2323;0.004327;-0.00435544;100 µA;
-0.075531;297.036;-8.46863e-05;3;2350;0.004327;-0.00435544;100 µA;
-0.00961304;300.332;-9.51233e-06;3;2377;0.004327;-0.00435544;10 µA;
0.0563049;303.628;2.8714e-05;3;2404;0.004327;-0.00435544;10 µA;
0.122223;306.923;5.27924e-05;3;2431;0.004327;-0.00435544;10 µA;
0.188141;310.219;7.16553e-05;3;2458;0.004327;-0.00435544;100 µA;
0.254059;313.515;8.86841e-05;3;2485;0.004327;-0.00435544;100 µA;
0.319977;316.811;0.000104462;4;2512;0.00433307;-0.004363;100 µA;
0.385895;320.107;0.000120636;4;2539;0.00433307;-0.004363;100 µA;
0.451813;323.403;0.000131775;4;2566;0.00433307;-0.004363;100 µA;
0.517731;326.699;0.000132172;4;2593;0.00433307;-0.004363;100 µA;
0.583649;329.995;0.000127106;4;2620;0.00433307;-0.004363;100 µA;
0.649567;333.291;0.000120331;4;2647;0.00433307;-0.004363;100 µA;
0.715485;336.586;0.000113495;4;2674;0.00433307;-0.004363;100 µA;
0.781403;339.882;0.000108124;4;2701;0.00433307;-0.004363;100 µA;
0.847321;343.178;0.000107727;4;2728;0.00433307;-0.004363;100 µA;
0.791168;346.474;1.75537e-05;4;2755;0.00433307;-0.004363;10 µA;
0.72525;349.77;-1.66656e-05;4;2782;0.00433307;-0.004363;10 µA;
0.659332;353.066;-3.27881e-05;4;2809;0.00433307;-0.004363;10 µA;
0.593414;356.362;-4.33807e-05;4;2836;0.00433307;-0.004363;10 µA;
0.527496;359.658;-5.35858e-05;4;2863;0.00433307;-0.004363;10 µA;
0.461578;362.954;-6.5979e-05;4;2890;0.00433307;-0.004363;100 µA;
0.39566;366.249;-8.24585e-05;4;2917;0.00433307;-0.004363;100 µA;
0.329742;369.545;-0.000103638;4;2944;0.00433307;-0.004363;100 µA;
0.263824;372.841;-0.000124115;4;2971;0.00433307;-0.004363;100 µA;
0.197906;376.137;-0.000137909;4;2998;0.00433307;-0.004363;100 µA;
0.131989;379.433;-0.000144623;4;3025;0.00433307;-0.004363;100 µA;
0.0660706;382.729;-0.000145538;4;3052;0.00433307;-0.004363;100 µA;
0.000152588;386.025;-0.000144073;4;3079;0.00433307;-0.004363;100 µA;
-0.0657654;389.321;-0.000143585;4;3106;0.00433307;-0.004363;100 µA;
-0.0682068;392.617;-7.27234e-05;4;3133;0.00433307;-0.004363;100 µA;
-0.00228882;395.912;-3.70575e-06;4;3160;0.00433307;-0.004363;10 µA;
0.0636292;399.208;3.21625e-05;4;3187;0.00433307;-0.004363;10 µA;
0.129547;402.504;5.53253e-05;4;3214;0.00433307;-0.004363;10 µA;
0.195465;405.8;7.38525e-05;4;3241;0.00433307;-0.004363;100 µA;
0.261383;409.096;9.07898e-05;4;3268;0.00433307;-0.004363;100 µA;
0.327301;412.392;0.000106567;5;3295;0.00433998;-0.00437226;100 µA;
0.393219;415.688;0.000122681;5;3322;0.00433998;-0.00437226;100 µA;
0.459137;418.984;0.000132629;5;3349;0.00433998;-0.00437226;100 µA;
0.525055;422.28;0.000131989;5;3376;0.00433998;-0.00437226;100 µA;
0.590973;425.575;0.000126526;5;3403;0.00433998;-0.00437226;100 µA;
0.656891;428.871;0.000119568;5;3430;0.00433998;-0.00437226;100 µA;
0.722809;432.167;0.000112732;5;3457;0.00433998;-0.00437226;100 µA;
0.788727;435.463;0.000107574;5;3484;0.00433998;-0.00437226;100 µA;
0.849762;438.759;9.8999e-05;5;3511;0.00433998;-0.00437226;100 µA;
0.783844;442.055;1.17065e-05;5;3538;0.00433998;-0.00437226;10 µA;
0.717926;445.351;-1.9223e-05;5;3565;0.00433998;-0.00437226;10 µA;
0.652008;448.647;-3.41858e-05;5;3592;0.00433998;-0.00437226;10 µA;
0.58609;451.943;-4.453125E-05;5;3619;0.00433998;-0.00437226;10 µA;
0.520172;455.238;-5.4892e-05;5;3646;0.00433998;-0.00437226;10 µA;
0.454254;458.534;-6.7749e-05;5;3673;0.00433998;-0.00437226;100 µA;
0.388336;461.83;-8.48389e-05;5;3700;0.00433998;-0.00437226;100 µA;
0.322418;465.126;-0.000106476;5;3727;0.00433998;-0.00437226;100 µA;
0.2565;468.422;-0.000126465;5;3754;0.00433998;-0.00437226;100 µA;
0.190582;471.718;-0.000139404;5;3781;0.00433998;-0.00437226;100 µA;
0.124664;475.014;-0.000145355;5;3808;0.00433998;-0.00437226;100 µA;
0.0587463;478.31;-0.000145752;5;3835;0.00433998;-0.00437226;100 µA;
-0.00717163;481.606;-0.000144379;5;3862;0.00433998;-0.00437226;100 µA;
-0.0730896;484.901;-0.000144043;5;3889;0.00433998;-0.00437226;100 µA;
-0.0608826;488.197;-6.12183e-05;5;3916;0.00433998;-0.00437226;100 µA;
0.0050354;491.493;1.94305e-06;5;3943;0.00433998;-0.00437226;10 µA;
0.0709534;494.789;3.55103e-05;5;3970;0.00433998;-0.00437226;10 µA;
0.136871;498.085;5.78796e-05;5;3997;0.00433998;-0.00437226;10 µA;
0.202789;501.381;7.60803e-05;5;4024;0.00433998;-0.00437226;100 µA;
0.268707;504.677;9.28955e-05;5;4051;0.00433998;-0.00437226;100 µA;
0.300446;506.264;0.000100464;5;4064;0.00433998;-0.00437226;100 µA;